File: carbon_dots_spectra/csv/acetone_AS15.2.txt
'aceton_AS15.2.spc - RawData'
'Wavelength nm.'	'Abs.'
310.0	6.0000
311.0	6.0000
312.0	6.0000
313.0	6.0000
314.0	6.0000
315.0	6.0000
316.0	5.4770
317.0	5.0447
318.0	5.4850
319.0	5.4416
320.0	5.6318
321.0	4.7518
322.0	4.5367
323.0	3.9710
324.0	3.5663
325.0	3.2249
326.0	2.9406
327.0	2.6886
328.0	2.4757
329.0	2.2939
330.0	2.1438
331.0	2.0155
332.0	1.9063
333.0	1.8114
334.0	1.7283
335.0	1.6543
336.0	1.5887
337.0	1.5299
338.0	1.4777
339.0	1.4304
340.0	1.3868
341.0	1.3462
342.0	1.3072
343.0	1.2697
344.0	1.2341
345.0	1.2001
346.0	1.1674
347.0	1.1354
348.0	1.1046
349.0	1.0744
350.0	1.0446
351.0	1.0156
352.0	0.9873
353.0	0.9593
354.0	0.9313
355.0	0.9038
356.0	0.8771
357.0	0.8513
358.0	0.8259
359.0	0.8007
360.0	0.7753
361.0	0.7512
362.0	0.7280
363.0	0.7064
364.0	0.6850
365.0	0.6646
366.0	0.6450
367.0	0.6263
368.0	0.6082
369.0	0.5910
370.0	0.5748
371.0	0.5598
372.0	0.5455
373.0	0.5318
374.0	0.5184
375.0	0.5061
376.0	0.4945
377.0	0.4838
378.0	0.4738
379.0	0.4651
380.0	0.4576
381.0	0.4509
382.0	0.4450
383.0	0.4398
384.0	0.4356
385.0	0.4320
386.0	0.4293
387.0	0.4272
388.0	0.4258
389.0	0.4249
390.0	0.4247
391.0	0.4250
392.0	0.4255
393.0	0.4262
394.0	0.4274
395.0	0.4288
396.0	0.4303
397.0	0.4320
398.0	0.4340
399.0	0.4364
400.0	0.4390
401.0	0.4417
402.0	0.4447
403.0	0.4479
404.0	0.4516
405.0	0.4557
406.0	0.4602
407.0	0.4650
408.0	0.4700
409.0	0.4750
410.0	0.4800
411.0	0.4847
412.0	0.4895
413.0	0.4942
414.0	0.4989
415.0	0.5038
416.0	0.5085
417.0	0.5131
418.0	0.5174
419.0	0.5215
420.0	0.5252
421.0	0.5291
422.0	0.5329
423.0	0.5367
424.0	0.5406
425.0	0.5448
426.0	0.5491
427.0	0.5535
428.0	0.5579
429.0	0.5624
430.0	0.5669
431.0	0.5711
432.0	0.5748
433.0	0.5783
434.0	0.5814
435.0	0.5842
436.0	0.5867
437.0	0.5887
438.0	0.5903
439.0	0.5914
440.0	0.5922
441.0	0.5924
442.0	0.5921
443.0	0.5913
444.0	0.5899
445.0	0.5879
446.0	0.5852
447.0	0.5819
448.0	0.5782
449.0	0.5743
450.0	0.5700
451.0	0.5653
452.0	0.5602
453.0	0.5547
454.0	0.5486
455.0	0.5418
456.0	0.5342
457.0	0.5257
458.0	0.5162
459.0	0.5056
460.0	0.4944
461.0	0.4827
462.0	0.4706
463.0	0.4584
464.0	0.4461
465.0	0.4344
466.0	0.4237
467.0	0.4144
468.0	0.4065
469.0	0.4001
470.0	0.3954
471.0	0.3920
472.0	0.3900
473.0	0.3892
474.0	0.3898
475.0	0.3915
476.0	0.3940
477.0	0.3970
478.0	0.4005
479.0	0.4042
480.0	0.4080
481.0	0.4114
482.0	0.4141
483.0	0.4161
484.0	0.4170
485.0	0.4166
486.0	0.4145
487.0	0.4103
488.0	0.4039
489.0	0.3952
490.0	0.3842
491.0	0.3708
492.0	0.3555
493.0	0.3388
494.0	0.3212
495.0	0.3028
496.0	0.2840
497.0	0.2652
498.0	0.2473
499.0	0.2300
500.0	0.2140
501.0	0.1992
502.0	0.1855
503.0	0.1731
504.0	0.1616
505.0	0.1512
506.0	0.1416
507.0	0.1330
508.0	0.1253
509.0	0.1184
510.0	0.1125
511.0	0.1069
512.0	0.1019
513.0	0.0972
514.0	0.0930
515.0	0.0890
516.0	0.0852
517.0	0.0819
518.0	0.0788
519.0	0.0760
520.0	0.0733
521.0	0.0708
522.0	0.0683
523.0	0.0662
524.0	0.0642
525.0	0.0625
526.0	0.0608
527.0	0.0593
528.0	0.0579
529.0	0.0566
530.0	0.0551
531.0	0.0536
532.0	0.0524
533.0	0.0514
534.0	0.0505
535.0	0.0495
536.0	0.0488
537.0	0.0480
538.0	0.0473
539.0	0.0466
540.0	0.0460
541.0	0.0453
542.0	0.0447
543.0	0.0442
544.0	0.0437
545.0	0.0430
546.0	0.0426
547.0	0.0423
548.0	0.0420
549.0	0.0417
550.0	0.0414
551.0	0.0411
552.0	0.0408
553.0	0.0404
554.0	0.0401
555.0	0.0398
556.0	0.0394
557.0	0.0390
558.0	0.0387
559.0	0.0386
560.0	0.0383
561.0	0.0381
562.0	0.0378
563.0	0.0377
564.0	0.0375
565.0	0.0373
566.0	0.0370
567.0	0.0367
568.0	0.0364
569.0	0.0362
570.0	0.0362
571.0	0.0362
572.0	0.0363
573.0	0.0362
574.0	0.0361
575.0	0.0361
576.0	0.0361
577.0	0.0362
578.0	0.0362
579.0	0.0362
580.0	0.0363
581.0	0.0364
582.0	0.0366
583.0	0.0365
584.0	0.0364
585.0	0.0362
586.0	0.0361
587.0	0.0360
588.0	0.0357
589.0	0.0355
590.0	0.0351
591.0	0.0349
592.0	0.0348
593.0	0.0348
594.0	0.0346
595.0	0.0344
596.0	0.0343
597.0	0.0343
598.0	0.0342
599.0	0.0340
600.0	0.0339
601.0	0.0339
602.0	0.0337
603.0	0.0336
604.0	0.0337
605.0	0.0336
606.0	0.0336
607.0	0.0336
608.0	0.0336
609.0	0.0336
610.0	0.0335
611.0	0.0336
612.0	0.0336
613.0	0.0335
614.0	0.0334
615.0	0.0334
616.0	0.0335
617.0	0.0335
618.0	0.0335
619.0	0.0335
620.0	0.0335
621.0	0.0335
622.0	0.0335
623.0	0.0335
624.0	0.0335
625.0	0.0335
626.0	0.0334
627.0	0.0333
628.0	0.0333
629.0	0.0332
630.0	0.0331
631.0	0.0332
632.0	0.0332
633.0	0.0330
634.0	0.0329
635.0	0.0328
636.0	0.0328
637.0	0.0327
638.0	0.0327
639.0	0.0327
640.0	0.0326
641.0	0.0326
642.0	0.0326
643.0	0.0325
644.0	0.0325
645.0	0.0323
646.0	0.0323
647.0	0.0323
648.0	0.0323
649.0	0.0323
650.0	0.0323
651.0	0.0324
652.0	0.0323
653.0	0.0323
654.0	0.0323
655.0	0.0324
656.0	0.0324
657.0	0.0325
658.0	0.0325
659.0	0.0326
660.0	0.0326
661.0	0.0326
662.0	0.0325
663.0	0.0325
664.0	0.0323
665.0	0.0323
666.0	0.0322
667.0	0.0321
668.0	0.0320
669.0	0.0320
670.0	0.0322
671.0	0.0322
672.0	0.0320
673.0	0.0318
674.0	0.0318
675.0	0.0318
676.0	0.0319
677.0	0.0318
678.0	0.0317
679.0	0.0318
680.0	0.0320
681.0	0.0320
682.0	0.0320
683.0	0.0317
684.0	0.0317
685.0	0.0317
686.0	0.0318
687.0	0.0318
688.0	0.0318
689.0	0.0319
690.0	0.0318
691.0	0.0319
692.0	0.0317
693.0	0.0318
694.0	0.0317
695.0	0.0317
696.0	0.0317
697.0	0.0317
698.0	0.0316
699.0	0.0317
700.0	0.0316
701.0	0.0316
702.0	0.0316
703.0	0.0316
704.0	0.0315
705.0	0.0316
706.0	0.0317
707.0	0.0318
708.0	0.0319
709.0	0.0317
710.0	0.0316
711.0	0.0317
712.0	0.0317
713.0	0.0318
714.0	0.0318
715.0	0.0317
716.0	0.0318
717.0	0.0318
718.0	0.0320
719.0	0.0321
720.0	0.0322
721.0	0.0324
722.0	0.0325
723.0	0.0327
724.0	0.0329
725.0	0.0331
726.0	0.0334
727.0	0.0337
728.0	0.0337
729.0	0.0338
730.0	0.0336
731.0	0.0336
732.0	0.0334
733.0	0.0334
734.0	0.0334
735.0	0.0334
736.0	0.0333
737.0	0.0332
738.0	0.0332
739.0	0.0332
740.0	0.0333
741.0	0.0332
742.0	0.0333
743.0	0.0333
744.0	0.0333
745.0	0.0333
746.0	0.0330
747.0	0.0328
748.0	0.0325
749.0	0.0324
750.0	0.0321
751.0	0.0320
752.0	0.0318
753.0	0.0318
754.0	0.0317
755.0	0.0316
756.0	0.0316
757.0	0.0314
758.0	0.0314
759.0	0.0313
760.0	0.0314
761.0	0.0314
762.0	0.0314
763.0	0.0314
764.0	0.0315
765.0	0.0315
766.0	0.0314
767.0	0.0314
768.0	0.0313
769.0	0.0313
770.0	0.0311
771.0	0.0310
772.0	0.0309
773.0	0.0308
774.0	0.0307
775.0	0.0308
776.0	0.0308
777.0	0.0310
778.0	0.0311
779.0	0.0313
780.0	0.0315
781.0	0.0316
782.0	0.0319
783.0	0.0321
784.0	0.0324
785.0	0.0326
786.0	0.0327
787.0	0.0330
788.0	0.0331
789.0	0.0333
790.0	0.0332
791.0	0.0333
792.0	0.0333
793.0	0.0333
794.0	0.0334
795.0	0.0334
796.0	0.0334
797.0	0.0333
798.0	0.0331
799.0	0.0331
800.0	0.0351
801.0	0.0371
802.0	0.0392
803.0	0.0392
804.0	0.0392
805.0	0.0392
806.0	0.0391
807.0	0.0392
808.0	0.0392
809.0	0.0392
810.0	0.0391
811.0	0.0391
812.0	0.0391
813.0	0.0391
814.0	0.0391
815.0	0.0390
816.0	0.0390
817.0	0.0388
818.0	0.0388
819.0	0.0386
820.0	0.0385
821.0	0.0383
822.0	0.0383
823.0	0.0383
824.0	0.0381
825.0	0.0381
826.0	0.0380
827.0	0.0379
828.0	0.0377
829.0	0.0377
830.0	0.0360
831.0	0.0343
832.0	0.0325
833.0	0.0325
834.0	0.0325
835.0	0.0325
836.0	0.0324
837.0	0.0324
838.0	0.0324
839.0	0.0325
840.0	0.0325
841.0	0.0325
842.0	0.0325
843.0	0.0325
844.0	0.0326
845.0	0.0326
846.0	0.0327
847.0	0.0327
848.0	0.0327
849.0	0.0327
850.0	0.0327
851.0	0.0327
852.0	0.0327
853.0	0.0326
854.0	0.0327
855.0	0.0327
856.0	0.0327
857.0	0.0329
858.0	0.0331
859.0	0.0334
860.0	0.0336
861.0	0.0338
862.0	0.0342
863.0	0.0345
864.0	0.0348
865.0	0.0350
866.0	0.0352
867.0	0.0354
868.0	0.0357
869.0	0.0358
870.0	0.0360
871.0	0.0362
872.0	0.0363
873.0	0.0365
874.0	0.0368
875.0	0.0372
876.0	0.0376
877.0	0.0380
878.0	0.0386
879.0	0.0393
880.0	0.0400
881.0	0.0408
882.0	0.0416
883.0	0.0426
884.0	0.0436
885.0	0.0448
886.0	0.0462
887.0	0.0478
888.0	0.0496
889.0	0.0516
890.0	0.0537
891.0	0.0554
892.0	0.0567
893.0	0.0574
894.0	0.0575
895.0	0.0571
896.0	0.0563
897.0	0.0555
898.0	0.0547
899.0	0.0542
900.0	0.0539
901.0	0.0540
902.0	0.0543
903.0	0.0547
904.0	0.0551
905.0	0.0555
906.0	0.0557
907.0	0.0558
908.0	0.0557
909.0	0.0552
910.0	0.0545
911.0	0.0533
912.0	0.0520
913.0	0.0505
914.0	0.0489
915.0	0.0468
916.0	0.0446
917.0	0.0424
918.0	0.0407
919.0	0.0391
920.0	0.0378
921.0	0.0367
922.0	0.0358
923.0	0.0350
924.0	0.0343
925.0	0.0339
926.0	0.0335
927.0	0.0333
928.0	0.0331
929.0	0.0329
930.0	0.0328
931.0	0.0326
932.0	0.0325
933.0	0.0323
934.0	0.0321
935.0	0.0319
936.0	0.0318
937.0	0.0318
938.0	0.0317
939.0	0.0317
940.0	0.0315
941.0	0.0315
942.0	0.0315
943.0	0.0315
944.0	0.0314
945.0	0.0315
946.0	0.0315
947.0	0.0314
948.0	0.0316
949.0	0.0317
950.0	0.0318
951.0	0.0317
952.0	0.0317
953.0	0.0319
954.0	0.0319
955.0	0.0319
956.0	0.0319
957.0	0.0320
958.0	0.0321
959.0	0.0321
960.0	0.0322
961.0	0.0323
962.0	0.0324
963.0	0.0325
964.0	0.0327
965.0	0.0329
966.0	0.0330
967.0	0.0331
968.0	0.0333
969.0	0.0335
970.0	0.0337
971.0	0.0340
972.0	0.0343
973.0	0.0345
974.0	0.0346
975.0	0.0349
976.0	0.0352
977.0	0.0354
978.0	0.0356
979.0	0.0360
980.0	0.0365
981.0	0.0371
982.0	0.0375
983.0	0.0380
984.0	0.0385
985.0	0.0391
986.0	0.0397
987.0	0.0402
988.0	0.0406
989.0	0.0410
990.0	0.0414
991.0	0.0419
992.0	0.0425
993.0	0.0431
994.0	0.0437
995.0	0.0443
996.0	0.0449
997.0	0.0455
998.0	0.0461
999.0	0.0465
1000.0	0.0467