File: carbon_dots_spectra/csv/etoh_AS15.2.txt
'etoh_AS15.2.spc - RawData'
'Wavelength nm.'	'Abs.'
310.0	0.6850
311.0	0.6115
312.0	0.5456
313.0	0.4850
314.0	0.4298
315.0	0.3808
316.0	0.3385
317.0	0.3025
318.0	0.2708
319.0	0.2439
320.0	0.2212
321.0	0.2023
322.0	0.1863
323.0	0.1723
324.0	0.1606
325.0	0.1505
326.0	0.1424
327.0	0.1350
328.0	0.1290
329.0	0.1235
330.0	0.1191
331.0	0.1150
332.0	0.1114
333.0	0.1081
334.0	0.1051
335.0	0.1025
336.0	0.1002
337.0	0.0980
338.0	0.0961
339.0	0.0943
340.0	0.0927
341.0	0.0912
342.0	0.0901
343.0	0.0889
344.0	0.0880
345.0	0.0872
346.0	0.0867
347.0	0.0861
348.0	0.0859
349.0	0.0859
350.0	0.0864
351.0	0.0865
352.0	0.0867
353.0	0.0870
354.0	0.0876
355.0	0.0883
356.0	0.0890
357.0	0.0898
358.0	0.0909
359.0	0.0920
360.0	0.0933
361.0	0.0947
362.0	0.0961
363.0	0.0976
364.0	0.0993
365.0	0.1011
366.0	0.1029
367.0	0.1048
368.0	0.1071
369.0	0.1094
370.0	0.1120
371.0	0.1145
372.0	0.1175
373.0	0.1204
374.0	0.1236
375.0	0.1268
376.0	0.1302
377.0	0.1339
378.0	0.1377
379.0	0.1419
380.0	0.1465
381.0	0.1511
382.0	0.1556
383.0	0.1603
384.0	0.1652
385.0	0.1702
386.0	0.1753
387.0	0.1807
388.0	0.1863
389.0	0.1918
390.0	0.1977
391.0	0.2036
392.0	0.2098
393.0	0.2160
394.0	0.2225
395.0	0.2292
396.0	0.2363
397.0	0.2435
398.0	0.2508
399.0	0.2586
400.0	0.2664
401.0	0.2745
402.0	0.2825
403.0	0.2908
404.0	0.2992
405.0	0.3077
406.0	0.3162
407.0	0.3247
408.0	0.3331
409.0	0.3409
410.0	0.3483
411.0	0.3550
412.0	0.3616
413.0	0.3680
414.0	0.3745
415.0	0.3810
416.0	0.3876
417.0	0.3946
418.0	0.4021
419.0	0.4098
420.0	0.4176
421.0	0.4259
422.0	0.4344
423.0	0.4433
424.0	0.4527
425.0	0.4625
426.0	0.4724
427.0	0.4822
428.0	0.4916
429.0	0.5008
430.0	0.5092
431.0	0.5168
432.0	0.5232
433.0	0.5285
434.0	0.5326
435.0	0.5355
436.0	0.5373
437.0	0.5376
438.0	0.5369
439.0	0.5356
440.0	0.5340
441.0	0.5323
442.0	0.5306
443.0	0.5295
444.0	0.5292
445.0	0.5299
446.0	0.5313
447.0	0.5334
448.0	0.5364
449.0	0.5402
450.0	0.5445
451.0	0.5488
452.0	0.5531
453.0	0.5574
454.0	0.5617
455.0	0.5653
456.0	0.5680
457.0	0.5693
458.0	0.5689
459.0	0.5661
460.0	0.5610
461.0	0.5535
462.0	0.5434
463.0	0.5308
464.0	0.5153
465.0	0.4973
466.0	0.4775
467.0	0.4565
468.0	0.4347
469.0	0.4129
470.0	0.3917
471.0	0.3713
472.0	0.3515
473.0	0.3328
474.0	0.3155
475.0	0.3003
476.0	0.2867
477.0	0.2749
478.0	0.2645
479.0	0.2559
480.0	0.2490
481.0	0.2432
482.0	0.2384
483.0	0.2344
484.0	0.2311
485.0	0.2283
486.0	0.2258
487.0	0.2234
488.0	0.2210
489.0	0.2183
490.0	0.2153
491.0	0.2116
492.0	0.2073
493.0	0.2025
494.0	0.1969
495.0	0.1906
496.0	0.1837
497.0	0.1765
498.0	0.1690
499.0	0.1613
500.0	0.1536
501.0	0.1462
502.0	0.1388
503.0	0.1318
504.0	0.1250
505.0	0.1186
506.0	0.1127
507.0	0.1072
508.0	0.1024
509.0	0.0980
510.0	0.0941
511.0	0.0905
512.0	0.0873
513.0	0.0844
514.0	0.0817
515.0	0.0790
516.0	0.0765
517.0	0.0742
518.0	0.0721
519.0	0.0701
520.0	0.0682
521.0	0.0664
522.0	0.0647
523.0	0.0633
524.0	0.0618
525.0	0.0605
526.0	0.0592
527.0	0.0579
528.0	0.0567
529.0	0.0555
530.0	0.0542
531.0	0.0531
532.0	0.0520
533.0	0.0511
534.0	0.0502
535.0	0.0493
536.0	0.0485
537.0	0.0478
538.0	0.0471
539.0	0.0465
540.0	0.0458
541.0	0.0451
542.0	0.0446
543.0	0.0441
544.0	0.0436
545.0	0.0430
546.0	0.0426
547.0	0.0422
548.0	0.0419
549.0	0.0416
550.0	0.0412
551.0	0.0409
552.0	0.0405
553.0	0.0403
554.0	0.0401
555.0	0.0397
556.0	0.0394
557.0	0.0390
558.0	0.0388
559.0	0.0385
560.0	0.0384
561.0	0.0381
562.0	0.0379
563.0	0.0378
564.0	0.0376
565.0	0.0375
566.0	0.0372
567.0	0.0370
568.0	0.0367
569.0	0.0365
570.0	0.0364
571.0	0.0364
572.0	0.0364
573.0	0.0363
574.0	0.0363
575.0	0.0362
576.0	0.0363
577.0	0.0365
578.0	0.0365
579.0	0.0365
580.0	0.0365
581.0	0.0365
582.0	0.0366
583.0	0.0366
584.0	0.0365
585.0	0.0363
586.0	0.0362
587.0	0.0361
588.0	0.0359
589.0	0.0357
590.0	0.0353
591.0	0.0351
592.0	0.0350
593.0	0.0349
594.0	0.0347
595.0	0.0345
596.0	0.0344
597.0	0.0343
598.0	0.0340
599.0	0.0338
600.0	0.0337
601.0	0.0337
602.0	0.0335
603.0	0.0335
604.0	0.0333
605.0	0.0334
606.0	0.0333
607.0	0.0332
608.0	0.0332
609.0	0.0331
610.0	0.0330
611.0	0.0329
612.0	0.0329
613.0	0.0329
614.0	0.0328
615.0	0.0328
616.0	0.0328
617.0	0.0329
618.0	0.0327
619.0	0.0327
620.0	0.0326
621.0	0.0327
622.0	0.0327
623.0	0.0327
624.0	0.0327
625.0	0.0326
626.0	0.0327
627.0	0.0326
628.0	0.0328
629.0	0.0328
630.0	0.0328
631.0	0.0327
632.0	0.0327
633.0	0.0327
634.0	0.0327
635.0	0.0326
636.0	0.0326
637.0	0.0325
638.0	0.0324
639.0	0.0324
640.0	0.0324
641.0	0.0323
642.0	0.0323
643.0	0.0322
644.0	0.0322
645.0	0.0321
646.0	0.0322
647.0	0.0322
648.0	0.0323
649.0	0.0322
650.0	0.0321
651.0	0.0321
652.0	0.0320
653.0	0.0320
654.0	0.0320
655.0	0.0320
656.0	0.0320
657.0	0.0321
658.0	0.0323
659.0	0.0325
660.0	0.0326
661.0	0.0326
662.0	0.0324
663.0	0.0322
664.0	0.0320
665.0	0.0318
666.0	0.0316
667.0	0.0317
668.0	0.0317
669.0	0.0318
670.0	0.0318
671.0	0.0317
672.0	0.0315
673.0	0.0315
674.0	0.0315
675.0	0.0316
676.0	0.0316
677.0	0.0316
678.0	0.0316
679.0	0.0317
680.0	0.0320
681.0	0.0321
682.0	0.0320
683.0	0.0318
684.0	0.0318
685.0	0.0317
686.0	0.0317
687.0	0.0317
688.0	0.0319
689.0	0.0320
690.0	0.0319
691.0	0.0320
692.0	0.0319
693.0	0.0319
694.0	0.0318
695.0	0.0319
696.0	0.0318
697.0	0.0318
698.0	0.0318
699.0	0.0319
700.0	0.0319
701.0	0.0319
702.0	0.0318
703.0	0.0318
704.0	0.0319
705.0	0.0320
706.0	0.0322
707.0	0.0322
708.0	0.0323
709.0	0.0321
710.0	0.0322
711.0	0.0322
712.0	0.0323
713.0	0.0324
714.0	0.0323
715.0	0.0323
716.0	0.0323
717.0	0.0324
718.0	0.0326
719.0	0.0327
720.0	0.0328
721.0	0.0328
722.0	0.0328
723.0	0.0329
724.0	0.0330
725.0	0.0332
726.0	0.0334
727.0	0.0336
728.0	0.0336
729.0	0.0339
730.0	0.0341
731.0	0.0343
732.0	0.0345
733.0	0.0349
734.0	0.0354
735.0	0.0358
736.0	0.0361
737.0	0.0363
738.0	0.0366
739.0	0.0370
740.0	0.0374
741.0	0.0376
742.0	0.0376
743.0	0.0374
744.0	0.0374
745.0	0.0373
746.0	0.0371
747.0	0.0370
748.0	0.0367
749.0	0.0367
750.0	0.0364
751.0	0.0364
752.0	0.0362
753.0	0.0363
754.0	0.0364
755.0	0.0364
756.0	0.0365
757.0	0.0364
758.0	0.0365
759.0	0.0365
760.0	0.0366
761.0	0.0366
762.0	0.0367
763.0	0.0367
764.0	0.0368
765.0	0.0369
766.0	0.0368
767.0	0.0368
768.0	0.0367
769.0	0.0366
770.0	0.0365
771.0	0.0365
772.0	0.0364
773.0	0.0363
774.0	0.0362
775.0	0.0362
776.0	0.0362
777.0	0.0362
778.0	0.0362
779.0	0.0363
780.0	0.0365
781.0	0.0366
782.0	0.0367
783.0	0.0369
784.0	0.0371
785.0	0.0372
786.0	0.0372
787.0	0.0374
788.0	0.0375
789.0	0.0376
790.0	0.0373
791.0	0.0372
792.0	0.0371
793.0	0.0374
794.0	0.0375
795.0	0.0378
796.0	0.0378
797.0	0.0376
798.0	0.0377
799.0	0.0377
800.0	0.0380