File: carbon_dots_spectra/csv/h2o_AS15.2.txt
'h2o_AS15.2.spc - RawData'
'Wavelength nm.'	'Abs.'
310.0	0.3718
311.0	0.3334
312.0	0.3005
313.0	0.2715
314.0	0.2467
315.0	0.2254
316.0	0.2074
317.0	0.1921
318.0	0.1787
319.0	0.1670
320.0	0.1570
321.0	0.1486
322.0	0.1413
323.0	0.1351
324.0	0.1297
325.0	0.1250
326.0	0.1211
327.0	0.1173
328.0	0.1140
329.0	0.1108
330.0	0.1082
331.0	0.1057
332.0	0.1035
333.0	0.1013
334.0	0.0993
335.0	0.0975
336.0	0.0958
337.0	0.0941
338.0	0.0923
339.0	0.0907
340.0	0.0891
341.0	0.0878
342.0	0.0867
343.0	0.0857
344.0	0.0849
345.0	0.0842
346.0	0.0836
347.0	0.0828
348.0	0.0823
349.0	0.0819
350.0	0.0819
351.0	0.0818
352.0	0.0817
353.0	0.0817
354.0	0.0818
355.0	0.0821
356.0	0.0822
357.0	0.0826
358.0	0.0829
359.0	0.0833
360.0	0.0837
361.0	0.0843
362.0	0.0849
363.0	0.0855
364.0	0.0861
365.0	0.0868
366.0	0.0875
367.0	0.0884
368.0	0.0896
369.0	0.0909
370.0	0.0924
371.0	0.0941
372.0	0.0959
373.0	0.0977
374.0	0.0997
375.0	0.1019
376.0	0.1043
377.0	0.1070
378.0	0.1097
379.0	0.1127
380.0	0.1159
381.0	0.1193
382.0	0.1227
383.0	0.1262
384.0	0.1298
385.0	0.1336
386.0	0.1375
387.0	0.1416
388.0	0.1459
389.0	0.1503
390.0	0.1550
391.0	0.1599
392.0	0.1649
393.0	0.1700
394.0	0.1753
395.0	0.1809
396.0	0.1867
397.0	0.1926
398.0	0.1989
399.0	0.2058
400.0	0.2126
401.0	0.2195
402.0	0.2262
403.0	0.2334
404.0	0.2407
405.0	0.2481
406.0	0.2557
407.0	0.2635
408.0	0.2714
409.0	0.2789
410.0	0.2861
411.0	0.2929
412.0	0.2998
413.0	0.3067
414.0	0.3138
415.0	0.3213
416.0	0.3290
417.0	0.3371
418.0	0.3456
419.0	0.3546
420.0	0.3636
421.0	0.3731
422.0	0.3828
423.0	0.3931
424.0	0.4036
425.0	0.4142
426.0	0.4249
427.0	0.4355
428.0	0.4460
429.0	0.4563
430.0	0.4659
431.0	0.4748
432.0	0.4826
433.0	0.4897
434.0	0.4960
435.0	0.5016
436.0	0.5068
437.0	0.5112
438.0	0.5151
439.0	0.5189
440.0	0.5228
441.0	0.5271
442.0	0.5318
443.0	0.5373
444.0	0.5434
445.0	0.5502
446.0	0.5577
447.0	0.5659
448.0	0.5745
449.0	0.5835
450.0	0.5927
451.0	0.6015
452.0	0.6103
453.0	0.6189
454.0	0.6276
455.0	0.6354
456.0	0.6420
457.0	0.6471
458.0	0.6502
459.0	0.6511
460.0	0.6497
461.0	0.6462
462.0	0.6404
463.0	0.6328
464.0	0.6231
465.0	0.6120
466.0	0.6001
467.0	0.5880
468.0	0.5759
469.0	0.5642
470.0	0.5536
471.0	0.5441
472.0	0.5357
473.0	0.5283
474.0	0.5224
475.0	0.5180
476.0	0.5149
477.0	0.5129
478.0	0.5119
479.0	0.5118
480.0	0.5125
481.0	0.5137
482.0	0.5149
483.0	0.5162
484.0	0.5174
485.0	0.5183
486.0	0.5183
487.0	0.5172
488.0	0.5150
489.0	0.5110
490.0	0.5052
491.0	0.4972
492.0	0.4870
493.0	0.4748
494.0	0.4607
495.0	0.4446
496.0	0.4269
497.0	0.4079
498.0	0.3882
499.0	0.3681
500.0	0.3481
501.0	0.3287
502.0	0.3097
503.0	0.2916
504.0	0.2742
505.0	0.2575
506.0	0.2419
507.0	0.2274
508.0	0.2143
509.0	0.2022
510.0	0.1914
511.0	0.1816
512.0	0.1727
513.0	0.1642
514.0	0.1562
515.0	0.1487
516.0	0.1417
517.0	0.1356
518.0	0.1298
519.0	0.1245
520.0	0.1194
521.0	0.1147
522.0	0.1100
523.0	0.1058
524.0	0.1020
525.0	0.0986
526.0	0.0951
527.0	0.0919
528.0	0.0887
529.0	0.0858
530.0	0.0827
531.0	0.0799
532.0	0.0772
533.0	0.0749
534.0	0.0727
535.0	0.0705
536.0	0.0684
537.0	0.0664
538.0	0.0646
539.0	0.0628
540.0	0.0610
541.0	0.0594
542.0	0.0579
543.0	0.0564
544.0	0.0551
545.0	0.0536
546.0	0.0525
547.0	0.0514
548.0	0.0504
549.0	0.0494
550.0	0.0484
551.0	0.0475
552.0	0.0466
553.0	0.0458
554.0	0.0450
555.0	0.0442
556.0	0.0434
557.0	0.0427
558.0	0.0421
559.0	0.0415
560.0	0.0410
561.0	0.0405
562.0	0.0400
563.0	0.0395
564.0	0.0392
565.0	0.0387
566.0	0.0383
567.0	0.0378
568.0	0.0375
569.0	0.0373
570.0	0.0370
571.0	0.0368
572.0	0.0367
573.0	0.0365
574.0	0.0364
575.0	0.0363
576.0	0.0364
577.0	0.0364
578.0	0.0365
579.0	0.0365
580.0	0.0366
581.0	0.0366
582.0	0.0367
583.0	0.0366
584.0	0.0365
585.0	0.0364
586.0	0.0363
587.0	0.0362
588.0	0.0360
589.0	0.0357
590.0	0.0353
591.0	0.0350
592.0	0.0349
593.0	0.0348
594.0	0.0346
595.0	0.0345
596.0	0.0345
597.0	0.0344
598.0	0.0343
599.0	0.0341
600.0	0.0341
601.0	0.0340
602.0	0.0340
603.0	0.0339
604.0	0.0338
605.0	0.0338
606.0	0.0337
607.0	0.0337
608.0	0.0336
609.0	0.0335
610.0	0.0334
611.0	0.0334
612.0	0.0334
613.0	0.0333
614.0	0.0332
615.0	0.0332
616.0	0.0332
617.0	0.0333
618.0	0.0332
619.0	0.0333
620.0	0.0333
621.0	0.0332
622.0	0.0331
623.0	0.0331
624.0	0.0331
625.0	0.0331
626.0	0.0331
627.0	0.0329
628.0	0.0329
629.0	0.0329
630.0	0.0330
631.0	0.0329
632.0	0.0329
633.0	0.0328
634.0	0.0328
635.0	0.0327
636.0	0.0327
637.0	0.0327
638.0	0.0326
639.0	0.0326
640.0	0.0326
641.0	0.0326
642.0	0.0326
643.0	0.0325
644.0	0.0324
645.0	0.0324
646.0	0.0324
647.0	0.0324
648.0	0.0324
649.0	0.0324
650.0	0.0324
651.0	0.0325
652.0	0.0325
653.0	0.0325
654.0	0.0325
655.0	0.0325
656.0	0.0325
657.0	0.0326
658.0	0.0327
659.0	0.0329
660.0	0.0329
661.0	0.0329
662.0	0.0328
663.0	0.0327
664.0	0.0325
665.0	0.0323
666.0	0.0321
667.0	0.0321
668.0	0.0322
669.0	0.0322
670.0	0.0322
671.0	0.0321
672.0	0.0320
673.0	0.0320
674.0	0.0320
675.0	0.0322
676.0	0.0320
677.0	0.0321
678.0	0.0321
679.0	0.0323
680.0	0.0326
681.0	0.0327
682.0	0.0327
683.0	0.0324
684.0	0.0325
685.0	0.0324
686.0	0.0325
687.0	0.0325
688.0	0.0326
689.0	0.0326
690.0	0.0327
691.0	0.0327
692.0	0.0327
693.0	0.0326
694.0	0.0327
695.0	0.0327
696.0	0.0328
697.0	0.0329
698.0	0.0329
699.0	0.0331
700.0	0.0330
701.0	0.0331
702.0	0.0332
703.0	0.0332
704.0	0.0332
705.0	0.0333
706.0	0.0336
707.0	0.0338
708.0	0.0338
709.0	0.0337
710.0	0.0337
711.0	0.0339
712.0	0.0341
713.0	0.0343
714.0	0.0345
715.0	0.0347
716.0	0.0348
717.0	0.0349
718.0	0.0353
719.0	0.0356
720.0	0.0358
721.0	0.0359
722.0	0.0360
723.0	0.0363
724.0	0.0367
725.0	0.0371
726.0	0.0374
727.0	0.0378
728.0	0.0381
729.0	0.0385
730.0	0.0390
731.0	0.0394
732.0	0.0399
733.0	0.0406
734.0	0.0412
735.0	0.0416
736.0	0.0418
737.0	0.0419
738.0	0.0421
739.0	0.0423
740.0	0.0425
741.0	0.0425
742.0	0.0427
743.0	0.0428
744.0	0.0429
745.0	0.0431
746.0	0.0430
747.0	0.0431
748.0	0.0431
749.0	0.0431
750.0	0.0431
751.0	0.0430
752.0	0.0431
753.0	0.0432
754.0	0.0433
755.0	0.0433
756.0	0.0432
757.0	0.0432
758.0	0.0433
759.0	0.0433
760.0	0.0433
761.0	0.0432
762.0	0.0432
763.0	0.0431
764.0	0.0433
765.0	0.0432
766.0	0.0431
767.0	0.0431
768.0	0.0430
769.0	0.0429
770.0	0.0427
771.0	0.0425
772.0	0.0424
773.0	0.0424
774.0	0.0422
775.0	0.0422
776.0	0.0422
777.0	0.0423
778.0	0.0423
779.0	0.0425
780.0	0.0427
781.0	0.0429
782.0	0.0429
783.0	0.0430
784.0	0.0430
785.0	0.0431
786.0	0.0432
787.0	0.0433
788.0	0.0433
789.0	0.0432
790.0	0.0428
791.0	0.0425
792.0	0.0423
793.0	0.0423
794.0	0.0424
795.0	0.0423
796.0	0.0421
797.0	0.0418
798.0	0.0417
799.0	0.0416
800.0	0.0435
801.0	0.0452
802.0	0.0474
803.0	0.0474
804.0	0.0474
805.0	0.0472
806.0	0.0471
807.0	0.0472
808.0	0.0472
809.0	0.0471
810.0	0.0471
811.0	0.0470
812.0	0.0470
813.0	0.0471
814.0	0.0472
815.0	0.0473
816.0	0.0473
817.0	0.0474
818.0	0.0474
819.0	0.0475
820.0	0.0476
821.0	0.0478
822.0	0.0480
823.0	0.0481
824.0	0.0482
825.0	0.0485
826.0	0.0488
827.0	0.0492
828.0	0.0496
829.0	0.0501
830.0	0.0488
831.0	0.0476
832.0	0.0461
833.0	0.0466
834.0	0.0470
835.0	0.0473
836.0	0.0476
837.0	0.0477
838.0	0.0479
839.0	0.0481
840.0	0.0483
841.0	0.0483
842.0	0.0484
843.0	0.0485
844.0	0.0486
845.0	0.0487
846.0	0.0489
847.0	0.0491
848.0	0.0492
849.0	0.0493
850.0	0.0494
851.0	0.0495
852.0	0.0496
853.0	0.0496
854.0	0.0497
855.0	0.0498
856.0	0.0498
857.0	0.0499
858.0	0.0500
859.0	0.0501
860.0	0.0501
861.0	0.0502
862.0	0.0503
863.0	0.0504
864.0	0.0505
865.0	0.0506
866.0	0.0507
867.0	0.0508
868.0	0.0510
869.0	0.0511
870.0	0.0512
871.0	0.0513
872.0	0.0514
873.0	0.0516
874.0	0.0518
875.0	0.0521
876.0	0.0522
877.0	0.0524
878.0	0.0526
879.0	0.0529
880.0	0.0531
881.0	0.0533
882.0	0.0535
883.0	0.0537
884.0	0.0540
885.0	0.0542
886.0	0.0544
887.0	0.0546
888.0	0.0549
889.0	0.0551
890.0	0.0554
891.0	0.0556
892.0	0.0558
893.0	0.0559
894.0	0.0561
895.0	0.0563
896.0	0.0566
897.0	0.0569
898.0	0.0571
899.0	0.0572
900.0	0.0574
901.0	0.0576
902.0	0.0579
903.0	0.0582
904.0	0.0585
905.0	0.0587
906.0	0.0590
907.0	0.0593
908.0	0.0597
909.0	0.0601
910.0	0.0605
911.0	0.0608
912.0	0.0612
913.0	0.0618
914.0	0.0626
915.0	0.0631
916.0	0.0635
917.0	0.0642
918.0	0.0649
919.0	0.0659
920.0	0.0669
921.0	0.0680
922.0	0.0691
923.0	0.0703
924.0	0.0716
925.0	0.0731
926.0	0.0749
927.0	0.0766
928.0	0.0785
929.0	0.0806
930.0	0.0827
931.0	0.0850
932.0	0.0875
933.0	0.0900
934.0	0.0926
935.0	0.0954
936.0	0.0983
937.0	0.1013
938.0	0.1044
939.0	0.1075
940.0	0.1109
941.0	0.1144
942.0	0.1182
943.0	0.1221
944.0	0.1262
945.0	0.1306
946.0	0.1353
947.0	0.1404
948.0	0.1458
949.0	0.1518
950.0	0.1581
951.0	0.1649
952.0	0.1718
953.0	0.1791
954.0	0.1864
955.0	0.1934
956.0	0.1998
957.0	0.2059
958.0	0.2116
959.0	0.2166
960.0	0.2209
961.0	0.2244
962.0	0.2274
963.0	0.2298
964.0	0.2318
965.0	0.2334
966.0	0.2347
967.0	0.2357
968.0	0.2365
969.0	0.2373
970.0	0.2380
971.0	0.2386
972.0	0.2391
973.0	0.2393
974.0	0.2395
975.0	0.2397
976.0	0.2397
977.0	0.2395
978.0	0.2390
979.0	0.2386
980.0	0.2380
981.0	0.2373
982.0	0.2364
983.0	0.2353
984.0	0.2342
985.0	0.2331
986.0	0.2318
987.0	0.2305
988.0	0.2289
989.0	0.2272
990.0	0.2255
991.0	0.2237
992.0	0.2219
993.0	0.2200
994.0	0.2180
995.0	0.2159
996.0	0.2138
997.0	0.2116
998.0	0.2095
999.0	0.2072
1000.0	0.2056