File: carbon_dots_spectra/csv/toluene_AS15.2.txt
'toluene_AS15.2.spc - RawData'
'Wavelength nm.'	'Abs.'
310.0	1.2164
311.0	1.0959
312.0	0.9910
313.0	0.8956
314.0	0.8088
315.0	0.7292
316.0	0.6559
317.0	0.5884
318.0	0.5241
319.0	0.4646
320.0	0.4111
321.0	0.3643
322.0	0.3246
323.0	0.2912
324.0	0.2636
325.0	0.2415
326.0	0.2243
327.0	0.2104
328.0	0.1994
329.0	0.1901
330.0	0.1829
331.0	0.1763
332.0	0.1707
333.0	0.1658
334.0	0.1617
335.0	0.1583
336.0	0.1551
337.0	0.1526
338.0	0.1500
339.0	0.1480
340.0	0.1462
341.0	0.1448
342.0	0.1436
343.0	0.1424
344.0	0.1415
345.0	0.1405
346.0	0.1394
347.0	0.1381
348.0	0.1367
349.0	0.1351
350.0	0.1336
351.0	0.1320
352.0	0.1305
353.0	0.1288
354.0	0.1273
355.0	0.1258
356.0	0.1244
357.0	0.1233
358.0	0.1222
359.0	0.1214
360.0	0.1205
361.0	0.1199
362.0	0.1193
363.0	0.1188
364.0	0.1180
365.0	0.1172
366.0	0.1162
367.0	0.1152
368.0	0.1141
369.0	0.1129
370.0	0.1115
371.0	0.1100
372.0	0.1086
373.0	0.1071
374.0	0.1056
375.0	0.1043
376.0	0.1030
377.0	0.1019
378.0	0.1008
379.0	0.1001
380.0	0.0998
381.0	0.0996
382.0	0.0994
383.0	0.0992
384.0	0.0990
385.0	0.0989
386.0	0.0989
387.0	0.0988
388.0	0.0986
389.0	0.0985
390.0	0.0986
391.0	0.0986
392.0	0.0988
393.0	0.0989
394.0	0.0993
395.0	0.0998
396.0	0.1005
397.0	0.1014
398.0	0.1026
399.0	0.1041
400.0	0.1056
401.0	0.1071
402.0	0.1088
403.0	0.1105
404.0	0.1122
405.0	0.1138
406.0	0.1152
407.0	0.1165
408.0	0.1173
409.0	0.1178
410.0	0.1179
411.0	0.1176
412.0	0.1170
413.0	0.1162
414.0	0.1153
415.0	0.1145
416.0	0.1138
417.0	0.1135
418.0	0.1134
419.0	0.1135
420.0	0.1139
421.0	0.1146
422.0	0.1156
423.0	0.1169
424.0	0.1186
425.0	0.1205
426.0	0.1226
427.0	0.1245
428.0	0.1264
429.0	0.1281
430.0	0.1294
431.0	0.1301
432.0	0.1299
433.0	0.1289
434.0	0.1269
435.0	0.1241
436.0	0.1203
437.0	0.1159
438.0	0.1106
439.0	0.1051
440.0	0.0995
441.0	0.0939
442.0	0.0884
443.0	0.0832
444.0	0.0786
445.0	0.0747
446.0	0.0712
447.0	0.0681
448.0	0.0654
449.0	0.0631
450.0	0.0611
451.0	0.0595
452.0	0.0581
453.0	0.0571
454.0	0.0561
455.0	0.0553
456.0	0.0546
457.0	0.0540
458.0	0.0535
459.0	0.0531
460.0	0.0527
461.0	0.0523
462.0	0.0519
463.0	0.0517
464.0	0.0515
465.0	0.0512
466.0	0.0510
467.0	0.0508
468.0	0.0507
469.0	0.0506
470.0	0.0505
471.0	0.0503
472.0	0.0501
473.0	0.0498
474.0	0.0497
475.0	0.0497
476.0	0.0496
477.0	0.0494
478.0	0.0492
479.0	0.0491
480.0	0.0492
481.0	0.0491
482.0	0.0490
483.0	0.0489
484.0	0.0488
485.0	0.0487
486.0	0.0486
487.0	0.0486
488.0	0.0484
489.0	0.0482
490.0	0.0481
491.0	0.0480
492.0	0.0478
493.0	0.0476
494.0	0.0475
495.0	0.0473
496.0	0.0470
497.0	0.0468
498.0	0.0466
499.0	0.0463
500.0	0.0460
501.0	0.0459
502.0	0.0457
503.0	0.0456
504.0	0.0454
505.0	0.0451
506.0	0.0448
507.0	0.0445
508.0	0.0443
509.0	0.0442
510.0	0.0440
511.0	0.0438
512.0	0.0437
513.0	0.0436
514.0	0.0437
515.0	0.0435
516.0	0.0434
517.0	0.0433
518.0	0.0432
519.0	0.0432
520.0	0.0430
521.0	0.0430
522.0	0.0428
523.0	0.0429
524.0	0.0428
525.0	0.0429
526.0	0.0429
527.0	0.0430
528.0	0.0429
529.0	0.0429
530.0	0.0427
531.0	0.0425
532.0	0.0423
533.0	0.0422
534.0	0.0421
535.0	0.0420
536.0	0.0421
537.0	0.0420
538.0	0.0420
539.0	0.0420
540.0	0.0420
541.0	0.0419
542.0	0.0419
543.0	0.0419
544.0	0.0419
545.0	0.0417
546.0	0.0417
547.0	0.0417
548.0	0.0418
549.0	0.0417
550.0	0.0416
551.0	0.0416
552.0	0.0416
553.0	0.0415
554.0	0.0416
555.0	0.0416
556.0	0.0415
557.0	0.0414
558.0	0.0414
559.0	0.0415
560.0	0.0415
561.0	0.0414
562.0	0.0415
563.0	0.0415
564.0	0.0415
565.0	0.0414
566.0	0.0414
567.0	0.0413
568.0	0.0412
569.0	0.0412
570.0	0.0412
571.0	0.0412
572.0	0.0413
573.0	0.0412
574.0	0.0411
575.0	0.0411
576.0	0.0410
577.0	0.0411
578.0	0.0411
579.0	0.0411
580.0	0.0410
581.0	0.0411
582.0	0.0412
583.0	0.0412
584.0	0.0412
585.0	0.0411
586.0	0.0411
587.0	0.0413
588.0	0.0412
589.0	0.0412
590.0	0.0410
591.0	0.0410
592.0	0.0411
593.0	0.0411
594.0	0.0410
595.0	0.0410
596.0	0.0410
597.0	0.0411
598.0	0.0410
599.0	0.0409
600.0	0.0410
601.0	0.0410
602.0	0.0410
603.0	0.0410
604.0	0.0412
605.0	0.0411
606.0	0.0411
607.0	0.0411
608.0	0.0412
609.0	0.0412
610.0	0.0411
611.0	0.0410
612.0	0.0409
613.0	0.0409
614.0	0.0407
615.0	0.0406
616.0	0.0406
617.0	0.0406
618.0	0.0406
619.0	0.0406
620.0	0.0406
621.0	0.0406
622.0	0.0406
623.0	0.0405
624.0	0.0405
625.0	0.0405
626.0	0.0405
627.0	0.0406
628.0	0.0405
629.0	0.0406
630.0	0.0406
631.0	0.0407
632.0	0.0406
633.0	0.0406
634.0	0.0405
635.0	0.0406
636.0	0.0406
637.0	0.0406
638.0	0.0406
639.0	0.0406
640.0	0.0406
641.0	0.0405
642.0	0.0406
643.0	0.0406
644.0	0.0406
645.0	0.0405
646.0	0.0405
647.0	0.0405
648.0	0.0404
649.0	0.0404
650.0	0.0404
651.0	0.0405
652.0	0.0405
653.0	0.0405
654.0	0.0405
655.0	0.0405
656.0	0.0405
657.0	0.0407
658.0	0.0407
659.0	0.0409
660.0	0.0409
661.0	0.0409
662.0	0.0409
663.0	0.0409
664.0	0.0408
665.0	0.0407
666.0	0.0407
667.0	0.0407
668.0	0.0407
669.0	0.0408
670.0	0.0409
671.0	0.0409
672.0	0.0408
673.0	0.0406
674.0	0.0405
675.0	0.0404
676.0	0.0404
677.0	0.0404
678.0	0.0404
679.0	0.0406
680.0	0.0409
681.0	0.0410
682.0	0.0410
683.0	0.0407
684.0	0.0407
685.0	0.0406
686.0	0.0406
687.0	0.0406
688.0	0.0407
689.0	0.0408
690.0	0.0409
691.0	0.0410
692.0	0.0409
693.0	0.0408
694.0	0.0408
695.0	0.0408
696.0	0.0408
697.0	0.0409
698.0	0.0410
699.0	0.0413
700.0	0.0413
701.0	0.0414
702.0	0.0414
703.0	0.0415
704.0	0.0415
705.0	0.0417
706.0	0.0421
707.0	0.0425
708.0	0.0428
709.0	0.0429
710.0	0.0431
711.0	0.0434
712.0	0.0436
713.0	0.0440
714.0	0.0441
715.0	0.0442
716.0	0.0441
717.0	0.0438
718.0	0.0436
719.0	0.0434
720.0	0.0432
721.0	0.0428
722.0	0.0424
723.0	0.0421
724.0	0.0420
725.0	0.0419
726.0	0.0418
727.0	0.0417
728.0	0.0416
729.0	0.0417
730.0	0.0417
731.0	0.0417
732.0	0.0417
733.0	0.0419
734.0	0.0421
735.0	0.0423
736.0	0.0423
737.0	0.0423
738.0	0.0424
739.0	0.0425
740.0	0.0426
741.0	0.0426
742.0	0.0427
743.0	0.0426
744.0	0.0427
745.0	0.0429
746.0	0.0429
747.0	0.0429
748.0	0.0428
749.0	0.0429
750.0	0.0428
751.0	0.0426
752.0	0.0425
753.0	0.0426
754.0	0.0427
755.0	0.0425
756.0	0.0424
757.0	0.0422
758.0	0.0422
759.0	0.0421
760.0	0.0420
761.0	0.0420
762.0	0.0419
763.0	0.0418
764.0	0.0419
765.0	0.0420
766.0	0.0420
767.0	0.0421
768.0	0.0421
769.0	0.0422
770.0	0.0422
771.0	0.0423
772.0	0.0424
773.0	0.0425
774.0	0.0425
775.0	0.0426
776.0	0.0426
777.0	0.0426
778.0	0.0426
779.0	0.0428
780.0	0.0430
781.0	0.0430
782.0	0.0430
783.0	0.0428
784.0	0.0428
785.0	0.0428
786.0	0.0429
787.0	0.0430
788.0	0.0430
789.0	0.0429
790.0	0.0428
791.0	0.0427
792.0	0.0428
793.0	0.0429
794.0	0.0433
795.0	0.0433
796.0	0.0434
797.0	0.0432
798.0	0.0433
799.0	0.0434
800.0	0.0427
801.0	0.0419
802.0	0.0412
803.0	0.0412
804.0	0.0412
805.0	0.0412
806.0	0.0412
807.0	0.0413
808.0	0.0414
809.0	0.0413
810.0	0.0413
811.0	0.0413
812.0	0.0413
813.0	0.0413
814.0	0.0412
815.0	0.0412
816.0	0.0411
817.0	0.0412
818.0	0.0412
819.0	0.0412
820.0	0.0411
821.0	0.0411
822.0	0.0412
823.0	0.0412
824.0	0.0411
825.0	0.0410
826.0	0.0410
827.0	0.0409
828.0	0.0408
829.0	0.0409
830.0	0.0377
831.0	0.0347
832.0	0.0315
833.0	0.0315
834.0	0.0316
835.0	0.0316
836.0	0.0316
837.0	0.0316
838.0	0.0316
839.0	0.0317
840.0	0.0317
841.0	0.0316
842.0	0.0316
843.0	0.0316
844.0	0.0317
845.0	0.0319
846.0	0.0320
847.0	0.0321
848.0	0.0323
849.0	0.0324
850.0	0.0327
851.0	0.0328
852.0	0.0330
853.0	0.0332
854.0	0.0336
855.0	0.0339
856.0	0.0343
857.0	0.0349
858.0	0.0355
859.0	0.0362
860.0	0.0369
861.0	0.0378
862.0	0.0390
863.0	0.0405
864.0	0.0421
865.0	0.0439
866.0	0.0461
867.0	0.0485
868.0	0.0511
869.0	0.0539
870.0	0.0568
871.0	0.0595
872.0	0.0622
873.0	0.0645
874.0	0.0664
875.0	0.0675
876.0	0.0676
877.0	0.0669
878.0	0.0654
879.0	0.0633
880.0	0.0608
881.0	0.0579
882.0	0.0548
883.0	0.0516
884.0	0.0487
885.0	0.0461
886.0	0.0438
887.0	0.0418
888.0	0.0402
889.0	0.0390
890.0	0.0382
891.0	0.0377
892.0	0.0373
893.0	0.0371
894.0	0.0371
895.0	0.0373
896.0	0.0376
897.0	0.0381
898.0	0.0385
899.0	0.0390
900.0	0.0396
901.0	0.0404
902.0	0.0414
903.0	0.0423
904.0	0.0432
905.0	0.0440
906.0	0.0447
907.0	0.0454
908.0	0.0459
909.0	0.0463
910.0	0.0465
911.0	0.0465
912.0	0.0466
913.0	0.0466
914.0	0.0466
915.0	0.0463
916.0	0.0458
917.0	0.0451
918.0	0.0443
919.0	0.0434
920.0	0.0423
921.0	0.0411
922.0	0.0397
923.0	0.0383
924.0	0.0368
925.0	0.0357
926.0	0.0347
927.0	0.0341
928.0	0.0335
929.0	0.0330
930.0	0.0327
931.0	0.0324
932.0	0.0323
933.0	0.0321
934.0	0.0320
935.0	0.0318
936.0	0.0317
937.0	0.0315
938.0	0.0313
939.0	0.0310
940.0	0.0308
941.0	0.0306
942.0	0.0304
943.0	0.0303
944.0	0.0302
945.0	0.0301
946.0	0.0300
947.0	0.0299
948.0	0.0298
949.0	0.0298
950.0	0.0298
951.0	0.0297
952.0	0.0297
953.0	0.0298
954.0	0.0298
955.0	0.0298
956.0	0.0298
957.0	0.0298
958.0	0.0299
959.0	0.0299
960.0	0.0299
961.0	0.0300
962.0	0.0300
963.0	0.0301
964.0	0.0302
965.0	0.0302
966.0	0.0303
967.0	0.0302
968.0	0.0302
969.0	0.0303
970.0	0.0304
971.0	0.0305
972.0	0.0306
973.0	0.0308
974.0	0.0309
975.0	0.0312
976.0	0.0314
977.0	0.0316
978.0	0.0317
979.0	0.0318
980.0	0.0320
981.0	0.0322
982.0	0.0322
983.0	0.0323
984.0	0.0324
985.0	0.0326
986.0	0.0328
987.0	0.0331
988.0	0.0334
989.0	0.0337
990.0	0.0340
991.0	0.0344
992.0	0.0349
993.0	0.0353
994.0	0.0357
995.0	0.0361
996.0	0.0364
997.0	0.0367
998.0	0.0369
999.0	0.0370
1000.0	0.0370