File: raman_norm/raman_NPl_glass_10s_5a_P10_488nm.txt
3004.05	5054.23
3002.37	5078.11
3000.7	5182.99
2999.02	5207.29
2997.35	5262.89
2995.67	5248.39
2993.99	5248.8
2992.32	5350.55
2990.64	5344.98
2988.96	5226.19
2987.28	5301.07
2985.6	5297
2983.92	5431.39
2982.24	5348.4
2980.56	5400.87
2978.88	5370
2977.2	5473.02
2975.52	5464.45
2973.84	5414.24
2972.16	5481.51
2970.48	5544.29
2968.8	5473.29
2967.11	5626.67
2965.43	5465.07
2963.75	5542.65
2962.06	5559.31
2960.38	5605.66
2958.69	5592.62
2957.01	5502.42
2955.32	5642.21
2953.64	5658.83
2951.95	5599.81
2950.27	5557.13
2948.58	5535.21
2946.89	5655.58
2945.21	5629.21
2943.52	5491.74
2941.83	5580.93
2940.14	5557.55
2938.45	5569.71
2936.77	5537.46
2935.08	5539.25
2933.39	5511.45
2931.7	5569.47
2930.01	5478.08
2928.32	5434.04
2926.62	5521.6
2924.93	5502.7
2923.24	5432.08
2921.55	5394
2919.86	5379.57
2918.16	5376.95
2916.47	5485.07
2914.78	5376.16
2913.08	5457.66
2911.39	5362.07
2909.69	5394.87
2908	5306.7
2906.3	5366.04
2904.61	5336.89
2902.91	5337.23
2901.21	5274.2
2899.52	5281.92
2897.82	5302.89
2896.12	5192.78
2894.43	5281.49
2892.73	5194.99
2891.03	5095.27
2889.33	5220.73
2887.63	5174.01
2885.93	5167.02
2884.23	5162.98
2882.53	5286.84
2880.83	5246.02
2879.13	5178.77
2877.43	5043.96
2875.72	5069.32
2874.02	5153.42
2872.32	5184.61
2870.62	5013.22
2868.91	5089.93
2867.21	5088.83
2865.51	5026.13
2863.8	5045.58
2862.1	4990.24
2860.39	5040.48
2858.69	5032.07
2856.98	5061.76
2855.27	5103.16
2853.57	4993.66
2851.86	4881.28
2850.15	4969.54
2848.44	4967.01
2846.74	4907.39
2845.03	5020.47
2843.32	5080.83
2841.61	5008.06
2839.9	4993.81
2838.19	4938.64
2836.48	4987.27
2834.77	5021.26
2833.06	4952.97
2831.35	4988.41
2829.63	4969.8
2827.92	5016.91
2826.21	4985.17
2824.5	5039.54
2822.78	4984.46
2821.07	4945.45
2819.36	5090.22
2817.64	4989.96
2815.93	4927.64
2814.21	4977.58
2812.5	4835.15
2810.78	5054.09
2809.06	5003.47
2807.35	4961.6
2805.63	4931.4
2803.91	4973.99
2802.19	4879.76
2800.48	4990.73
2798.76	5026.01
2797.04	4888.2
2795.32	4964.2
2793.6	4963.11
2791.88	4914.06
2790.16	5016.16
2788.44	4997.63
2786.72	5058.99
2785	5065.14
2783.27	5084.36
2781.55	5019.37
2779.83	5038.59
2778.11	5073.76
2776.38	5091.5
2774.66	5112.13
2772.93	5112.46
2771.21	5063.5
2769.48	5191.37
2767.76	5069.97
2766.03	5145.63
2764.31	5098.15
2762.58	5057.93
2760.85	5145.13
2759.13	5185.97
2757.4	5203.63
2755.67	5166.32
2753.94	5160.84
2752.21	5194.41
2750.48	5225.07
2748.76	5221.02
2747.03	5196.75
2745.29	5146.47
2743.56	5187.23
2741.83	5160.08
2740.1	5296.11
2738.37	5228.53
2736.64	5260.57
2734.9	5252.19
2733.17	5304.4
2731.44	5257.08
2729.7	5231.4
2727.97	5225.91
2726.24	5256.46
2724.5	5321.58
2722.77	5301.67
2721.03	5278.89
2719.29	5300.76
2717.56	5275.1
2715.82	5235.07
2714.08	5360.54
2712.35	5399.63
2710.61	5202.81
2708.87	5270.68
2707.13	5301.14
2705.39	5312.89
2703.65	5360.57
2701.91	5297.59
2700.17	5260.5
2698.43	5351.24
2696.69	5242.36
2694.95	5304.35
2693.21	5224.23
2691.46	5207.28
2689.72	5273.54
2687.98	5253.72
2686.24	5298.43
2684.49	5222.7
2682.75	5235.87
2681	5167.34
2679.26	5224.93
2677.51	5206.57
2675.77	5206.84
2674.02	5161.29
2672.27	5037.03
2670.53	5174.72
2668.78	5104.88
2667.03	5120.9
2665.28	5043.96
2663.53	5061.42
2661.79	5093.16
2660.04	5072.01
2658.29	5005.14
2656.54	5016.88
2654.79	5015.75
2653.04	4974.64
2651.28	4910.71
2649.53	5003.81
2647.78	4959.87
2646.03	4880.3
2644.28	4917.71
2642.52	4793.97
2640.77	4898.39
2639.01	4874.48
2637.26	4852.01
2635.51	4845.22
2633.75	4886.85
2631.99	4880.06
2630.24	4874.69
2628.48	4892.09
2626.73	4878.18
2624.97	4706.35
2623.21	4755.07
2621.45	4779.6
2619.69	4750.08
2617.94	4693.58
2616.18	4736.57
2614.42	4778.12
2612.66	4767.1
2610.9	4747.56
2609.14	4678.34
2607.37	4682.96
2605.61	4649.26
2603.85	4625.5
2602.09	4681.2
2600.33	4624.83
2598.56	4681.91
2596.8	4554.69
2595.03	4496.97
2593.27	4663.15
2591.51	4598.34
2589.74	4665.28
2587.97	4676.97
2586.21	4573.98
2584.44	4584.27
2582.68	4511.06
2580.91	4577.94
2579.14	4520.33
2577.37	4587.18
2575.6	4505.55
2573.84	4602.05
2572.07	4524.7
2570.3	4657.89
2568.53	4495.81
2566.76	4538.56
2564.99	4551.65
2563.21	4516.74
2561.44	4493.13
2559.67	4506.22
2557.9	4371.19
2556.13	4490.07
2554.35	4558.13
2552.58	4561.32
2550.81	4432.04
2549.03	4536.7
2547.26	4537.07
2545.48	4498.02
2543.7	4539.23
2541.93	4431.21
2540.15	4452.72
2538.38	4398.24
2536.6	4388.8
2534.82	4407.48
2533.04	4421.94
2531.26	4551.67
2529.49	4362.31
2527.71	4407.68
2525.93	4441.79
2524.15	4435.16
2522.37	4415.89
2520.58	4445.76
2518.8	4405.45
2517.02	4433.91
2515.24	4434.3
2513.46	4377.19
2511.67	4367.77
2509.89	4427.05
2508.11	4416.23
2506.32	4511.9
2504.54	4400.2
2502.75	4404.79
2500.97	4444.39
2499.18	4457.37
2497.4	4440.96
2495.61	4378.37
2493.82	4300.43
2492.03	4360.98
2490.25	4301.25
2488.46	4466.63
2486.67	4349.6
2484.88	4386.33
2483.09	4395.1
2481.3	4314.48
2479.51	4286.96
2477.72	4283.18
2475.93	4343.61
2474.14	4374.71
2472.35	4266.28
2470.55	4350.39
2468.76	4334.05
2466.97	4320.51
2465.17	4308.36
2463.38	4307.37
2461.59	4387.19
2459.79	4317.93
2458	4184.64
2456.2	4243.55
2454.4	4262.06
2452.61	4325.09
2450.81	4253.14
2449.01	4321.71
2447.22	4233.11
2445.42	4304.43
2443.62	4228.38
2441.82	4328.85
2440.02	4255.61
2438.22	4161.56
2436.42	4207.82
2434.62	4215.18
2432.82	4208.66
2431.02	4222.96
2429.22	4259.45
2427.41	4193.27
2425.61	4249.16
2423.81	4260.66
2422	4241.66
2420.2	4254.54
2418.4	4211.99
2416.59	4256.73
2414.79	4208.66
2412.98	4186.93
2411.17	4223.33
2409.37	4241.73
2407.56	4132.83
2405.75	4167.85
2403.95	4230.5
2402.14	4192.19
2400.33	4257.58
2398.52	4198.55
2396.71	4175.47
2394.9	4268.44
2393.09	4216.36
2391.28	4214
2389.47	4224.07
2387.66	4127.87
2385.85	4197.28
2384.03	4163.2
2382.22	4171.9
2380.41	4227.46
2378.59	4197.54
2376.78	4200.7
2374.96	4158.39
2373.15	4182.23
2371.33	4269.4
2369.52	4203.7
2367.7	4150.42
2365.89	4121.93
2364.07	4275.08
2362.25	4234.2
2360.43	4183.71
2358.62	4130.49
2356.8	4140.53
2354.98	4165.68
2353.16	4115.25
2351.34	4224.2
2349.52	4214.98
2347.7	4120.63
2345.88	4127.91
2344.06	4132.45
2342.23	4150.7
2340.41	4146.99
2338.59	4188.55
2336.77	4172.49
2334.94	4153.71
2333.12	4224.01
2331.29	4235.36
2329.47	4176.84
2327.64	4230.66
2325.82	4121.5
2323.99	4117.81
2322.16	4116.85
2320.34	4126.85
2318.51	4136.83
2316.68	4105.78
2314.85	4125.34
2313.02	4062.86
2311.2	4135.72
2309.37	4157.99
2307.54	4110.58
2305.71	4053.63
2303.87	4078.63
2302.04	4145.94
2300.21	4041.25
2298.38	4167.21
2296.55	4123.95
2294.71	4174.82
2292.88	4070.22
2291.05	4073.36
2289.21	4165.09
2287.38	4145.05
2285.54	4114.11
2283.71	4179.89
2281.87	4172.11
2280.03	4123.5
2278.2	4141.59
2276.36	4122.94
2274.52	4168.23
2272.68	4053.02
2270.85	4110.54
2269.01	4045.69
2267.17	4154.84
2265.33	4221.81
2263.49	4140.68
2261.65	4127.49
2259.81	4129.24
2257.96	4114.71
2256.12	4089.32
2254.28	4015.09
2252.44	4133.54
2250.59	4087.82
2248.75	4103.14
2246.91	4160.47
2245.06	4106.64
2243.22	4056.91
2241.37	4053.25
2239.52	4138.99
2237.68	4201.66
2235.83	4165.49
2233.98	4171.28
2232.14	4109.42
2230.29	4126.05
2228.44	4121.03
2226.59	4118.71
2224.74	4090.72
2222.89	4157.34
2221.04	4078
2219.19	4116.22
2217.34	4047.73
2215.49	4102.15
2213.64	4089.04
2211.78	4127.23
2209.93	4049.35
2208.08	4105.06
2206.23	4113.55
2204.37	4117.98
2202.52	4028.04
2200.66	4117.4
2198.81	4092.19
2196.95	4093.93
2195.09	4103.74
2193.24	4057
2191.38	4068.17
2189.52	4052.42
2187.66	4122.78
2185.81	4015.54
2183.95	4104.72
2182.09	4021.74
2180.23	4067.85
2178.37	4035.98
2176.51	4088.79
2174.65	4116.04
2172.79	4030.47
2170.92	4098
2169.06	4103.76
2167.2	4066.56
2165.34	4009.25
2163.47	4041.85
2161.61	4016.76
2159.74	4014.48
2157.88	4048.4
2156.01	4110.44
2154.15	4097.42
2152.28	4073.69
2150.41	3980.32
2148.55	4063.74
2146.68	3978.46
2144.81	4061.84
2142.94	4074.27
2141.07	4050.57
2139.2	4104.46
2137.34	4080.77
2135.46	4077.14
2133.59	4070.84
2131.72	4131.34
2129.85	4044.88
2127.98	3953.12
2126.11	4048.33
2124.23	4048.71
2122.36	4055.77
2120.49	4076.17
2118.61	4052.54
2116.74	4092.93
2114.86	4118.63
2112.99	4109.67
2111.11	4051.4
2109.24	4030.46
2107.36	4029.52
2105.48	4020.58
2103.6	4107.51
2101.73	4010.71
2099.85	4090.95
2097.97	4043.42
2096.09	4069.07
2094.21	3989.66
2092.33	4047.22
2090.45	4025
2088.57	4032.03
2086.69	3989.9
2084.8	4073.97
2082.92	4110.2
2081.04	4017.62
2079.15	4053.84
2077.27	4059.53
2075.39	4093.07
2073.5	4109.35
2071.62	4020.86
2069.73	4102.12
2067.85	3977.88
2065.96	4018.03
2064.07	4254.24
2062.18	4230.72
2060.3	4166.16
2058.41	4079.12
2056.52	4075.51
2054.63	4078.53
2052.74	4041.85
2050.85	4130.84
2048.96	3973.82
2047.07	4017.84
2045.18	3953.45
2043.29	3988.2
2041.39	4028.21
2039.5	4061.61
2037.61	4032.92
2035.71	4138.91
2033.82	4070.62
2031.93	4020.84
2030.03	4001.42
2028.14	4045.32
2026.24	4043.05
2024.34	4044.73
2022.45	4021.37
2020.55	4008.57
2018.65	4052.41
2016.75	4009.31
2014.86	4036.02
2012.96	4019.27
2011.06	3973.57
2009.16	4048.96
2007.26	4033.53
2005.36	4083.87
2003.45	4059.24
2001.55	4004.38
1999.65	4077.04
1997.75	4034.03
1995.85	4014.69
1993.94	4079.41
1992.04	4094.2
1990.13	4039.41
1988.23	3959.71
1986.32	4062.44
1984.42	4006.38
1982.51	4090.69
1980.6	4083.16
1978.7	4032.38
1976.79	4009.15
1974.88	4002.96
1972.97	3962.72
1971.06	4027.27
1969.16	4065.6
1967.25	3991.33
1965.34	4021.79
1963.43	3942.34
1961.51	4022.51
1959.6	3960.09
1957.69	4048.07
1955.78	3977.83
1953.86	4039.62
1951.95	3996.85
1950.04	4044.24
1948.12	4064.18
1946.21	3967.9
1944.29	3951.3
1942.38	3975.16
1940.46	3915.5
1938.55	3999.37
1936.63	3981.46
1934.71	3946.62
1932.79	3983.49
1930.87	3947.36
1928.96	3926.88
1927.04	3985.87
1925.12	3957.58
1923.2	3952.73
1921.28	3919.26
1919.35	3930.04
1917.43	3970.74
1915.51	3928.18
1913.59	3964.96
1911.67	3992.62
1909.74	4035.87
1907.82	3975.13
1905.89	3872.85
1903.97	3936.88
1902.04	3929.45
1900.12	3903.85
1898.19	3914.61
1896.27	3962.99
1894.34	3937.4
1892.41	3954.62
1890.48	3917.37
1888.55	3941.08
1886.63	3954.4
1884.7	3934.02
1882.77	3898.11
1880.84	3947.69
1878.91	3906.61
1876.97	3970.41
1875.04	3970.76
1873.11	3837.84
1871.18	3928.77
1869.25	3958.88
1867.31	3942.42
1865.38	3916.92
1863.44	3937.96
1861.51	3965.45
1859.57	3902.5
1857.64	3843.46
1855.7	3970.37
1853.77	3919.08
1851.83	3949.12
1849.89	3961.08
1847.95	3927.89
1846.01	3939.85
1844.07	3918.28
1842.14	3957.31
1840.2	3969.25
1838.26	3928.37
1836.31	3895.23
1834.37	3891.72
1832.43	3888.22
1830.49	3861.55
1828.55	3879.93
1826.6	3814.68
1824.66	3825.34
1822.72	3963.31
1820.77	3900.66
1818.83	3893.3
1816.88	3874.38
1814.93	3899.15
1812.99	3842.99
1811.04	3876.74
1809.09	3830.88
1807.15	3873.6
1805.2	3876.53
1803.25	3797.34
1801.3	3855.44
1799.35	3867.34
1797.4	3877.95
1795.45	3894.97
1793.5	3786.4
1791.55	3807.27
1789.59	3880.64
1787.64	3872.03
1785.69	3845.5
1783.74	3872.74
1781.78	3754.1
1779.83	3845.3
1777.87	3913.44
1775.92	3848.57
1773.96	3865.55
1772.01	3914.46
1770.05	3821.53
1768.09	3844.88
1766.13	3815.87
1764.18	3880.07
1762.22	3914.88
1760.26	3801.64
1758.3	3879.83
1756.34	3877.62
1754.38	3825.68
1752.42	3885.96
1750.46	3837.86
1748.49	3821.65
1746.53	3903.54
1744.57	3824.91
1742.61	3854.55
1740.64	3951.65
1738.68	3901.06
1736.71	3878.49
1734.75	3873.74
1732.78	3841.02
1730.82	3862.98
1728.85	3907.81
1726.88	3938.65
1724.92	3897.04
1722.95	3851.64
1720.98	3849.44
1719.01	3901.84
1717.04	3866.63
1715.07	3842.85
1713.1	3831.78
1711.13	3857.49
1709.16	3880.66
1707.19	3880.99
1705.21	3845.83
1703.24	3849.97
1701.27	3819.9
1699.29	3878.51
1697.32	3896.57
1695.35	3947.54
1693.37	3884.56
1691.4	3873.5
1689.42	3854.85
1687.44	3900.72
1685.47	3851.72
1683.49	3973.42
1681.51	3900.42
1679.53	3883.05
1677.55	3846.74
1675.57	3834.44
1673.59	3867.6
1671.61	3910.85
1669.63	3991.94
1667.65	3940.5
1665.67	3991.26
1663.69	3933.55
1661.7	3976.72
1659.72	4014.83
1657.74	4074.35
1655.75	4156.52
1653.77	4103.87
1651.78	4153.24
1649.8	4348.64
1647.81	4508.7
1645.82	4687.56
1643.84	4849.97
1641.85	5131.8
1639.86	5496.48
1637.87	6132.53
1635.88	6498.05
1633.89	6970.2
1631.9	7552.67
1629.91	8021.81
1627.92	8328.75
1625.93	8569.01
1623.94	8768.98
1621.95	8819.54
1619.95	8806.11
1617.96	8847.85
1615.97	8994.9
1613.97	9021.54
1611.98	8922.84
1609.98	9045.96
1607.99	9170.26
1605.99	9345.85
1603.99	9497.56
1602	9539.05
1600	9678.13
1598	9738.32
1596	9938.56
1594	9907.37
1592	9806.18
1590	9795.04
1588	9521.49
1586	9308.04
1584	9138.41
1582	8770.32
1579.99	8433.62
1577.99	8039.68
1575.99	7813.13
1573.98	7580.44
1571.98	7214.43
1569.97	6995.72
1567.97	6767.15
1565.96	6607.22
1563.95	6327.77
1561.95	6190.45
1559.94	6112.97
1557.93	5933.44
1555.92	5843.61
1553.91	5758.8
1551.9	5683.99
1549.89	5665.18
1547.88	5448.67
1545.87	5441.12
1543.86	5308.04
1541.85	5381.28
1539.84	5152.63
1537.82	5156.33
1535.81	5043.32
1533.79	5050.76
1531.78	5058.2
1529.77	4981.28
1527.75	5006.09
1525.73	4947.81
1523.72	4952.79
1521.7	4862.33
1519.68	4851.21
1517.66	4884.7
1515.65	4841.38
1513.63	4876.09
1511.61	4779.57
1509.59	4789.52
1507.57	4785.86
1505.55	4717.88
1503.52	4726.61
1501.5	4685.87
1499.48	4595.71
1497.46	4672.42
1495.43	4699.68
1493.41	4649.11
1491.38	4612.14
1489.36	4713.47
1487.33	4735.74
1485.31	4659.3
1483.28	4618.66
1481.25	4592.85
1479.23	4611.43
1477.2	4617.68
1475.17	4611.6
1473.14	4637.56
1471.11	4739.88
1469.08	4657.42
1467.05	4616.86
1465.02	4645.25
1462.99	4585.02
1460.96	4586.34
1458.92	4540.92
1456.89	4517.65
1454.86	4558.32
1452.82	4589.13
1450.79	4632.22
1448.75	4616.32
1446.72	4667.97
1444.68	4658.21
1442.64	4750.33
1440.61	4846.09
1438.57	4763.9
1436.53	4839.98
1434.49	4793.4
1432.45	4890.27
1430.41	4909.88
1428.37	4919.67
1426.33	4958.86
1424.29	5115.6
1422.25	5244.1
1420.21	5193.82
1418.16	5345.49
1416.12	5456.7
1414.08	5528.72
1412.03	5528.55
1409.99	5723.99
1407.94	5795.88
1405.9	5943.5
1403.85	6094.7
1401.8	6333.76
1399.75	6462.81
1397.71	6599.12
1395.66	6751.22
1393.61	6998.41
1391.56	7149.12
1389.51	7393.64
1387.46	7630.72
1385.41	7926.19
1383.36	8024.11
1381.3	8248.66
1379.25	8570.54
1377.2	8888.6
1375.14	9110.33
1373.09	9364.81
1371.04	9580.22
1368.98	9821.06
1366.92	10092.2
1364.87	10189.3
1362.81	10266.9
1360.75	10323.9
1358.7	10344.3
1356.64	10256.7
1354.58	10171.5
1352.52	10184.7
1350.46	9959.99
1348.4	9746.34
1346.34	9605.57
1344.28	9199.3
1342.21	8933.87
1340.15	8721.9
1338.09	8328.28
1336.02	8074.17
1333.96	7718.46
1331.9	7680.16
1329.83	7252.1
1327.76	7045.72
1325.7	6792.26
1323.63	6594.56
1321.56	6253.07
1319.5	6008.47
1317.43	5901.77
1315.36	5706.92
1313.29	5539.96
1311.22	5341.68
1309.15	5200.25
1307.08	5049.23
1305.01	4952.59
1302.93	4889.79
1300.86	4665.39
1298.79	4591.84
1296.71	4506.26
1294.64	4374.94
1292.56	4287.05
1290.49	4263.06
1288.41	4081.31
1286.34	4097.11
1284.26	3911.89
1282.18	3863.95
1280.1	3790.77
1278.03	3706.8
1275.95	3697.42
1273.87	3563.03
1271.79	3568.11
1269.71	3444.63
1267.62	3446.14
1265.54	3459.65
1263.46	3422.74
1261.38	3330.63
1259.29	3273.37
1257.21	3253.32
1255.13	3161.33
1253.04	3208.46
1250.95	3109.33
1248.87	3049.8
1246.78	3038.22
1244.69	3030.24
1242.61	2950.42
1240.52	2885.01
1238.43	2867.5
1236.34	2877.52
1234.25	2852.84
1232.16	2769.58
1230.07	2764.07
1227.98	2721.51
1225.88	2635.96
1223.79	2654.38
1221.7	2727.73
1219.6	2693.58
1217.51	2587.83
1215.41	2626.53
1213.32	2612.71
1211.22	2492.75
1209.13	2499.25
1207.03	2534.35
1204.93	2462.18
1202.83	2491.31
1200.73	2381.07
1198.63	2437.6
1196.53	2331
1194.43	2338.72
1192.33	2335.72
1190.23	2324.39
1188.13	2359.45
1186.03	2371.9
1183.92	2280.94
1181.82	2266.08
1179.72	2245.28
1177.61	2230.43
1175.5	2221.52
1173.4	2211.44
1171.29	2195.42
1169.18	2194.83
1167.08	2246.44
1164.97	2148.6
1162.86	2188.34
1160.75	2194.86
1158.64	2138.59
1156.53	2143.94
1154.42	2214.42
1152.31	2178.31
1150.19	2167.07
1148.08	2120.35
1145.97	2067.73
1143.85	2131.03
1141.74	2096.17
1139.62	2087.34
1137.51	2069.05
1135.39	2081.49
1133.28	2078.57
1131.16	2103.98
1129.04	2112.86
1126.92	2026.14
1124.8	2078.69
1122.68	2063.97
1120.56	2032.76
1118.44	2051.07
1116.32	2045.8
1114.2	2004.01
1112.08	1978.73
1109.95	2000.57
1107.83	1957.65
1105.7	1921.81
1103.58	1944.82